;Condit;Task;stim_file;coffee1.thisRepN;coffee1.thisTrialN;coffee1.thisN;coffee1.thisIndex;coffee2.thisRepN;coffee2.thisTrialN;coffee2.thisN;coffee2.thisIndex;key_resp_instructions.keys;key_resp_instructions.rt;key_resp_instructions.started;key_resp_instructions.stopped;image_instructions.started;image_instructions.stopped;polygon.started;polygon.stopped;key_resp.keys;key_resp.rt;key_resp.started;key_resp.stopped;image.started;image.stopped;participant;session;date;expName;psychopyVersion;frameRate;
;;;;;;;;;;;;space;17.84230745100649;114.28200777100574;None;;;;;;;;;;;P3;1;2021_Dec_01_1454;Psychophysics_project;2021.2.3;59.293911501636344;
;coffee_a;no-go;coffee1.png;0;0;0;28;;;;;;;;;114.28200777100574;None;132.98461015800422;133.486322458004;space;0.5025915419973899;133.73373937999713;None;133.73373937999713;134.23845917799918;P3;1;2021_Dec_01_1454;Psychophysics_project;2021.2.3;59.293911501636344;
;coffee_a;go;water.png;0;1;1;0;;;;;;;;;;;134.54950744500093;135.05402226699516;None;;135.29948331799824;None;135.29948331799824;135.80045850899478;P3;1;2021_Dec_01_1454;Psychophysics_project;2021.2.3;59.293911501636344;
;coffee_a;go;water.png;0;2;2;8;;;;;;;;;;;137.06763044500258;137.57118716300465;space;0.4927126430120552;137.81786676699994;136.82594089000486;137.81786676699994;138.32246243300324;P3;1;2021_Dec_01_1454;Psychophysics_project;2021.2.3;59.293911501636344;
;coffee_a;go;water.png;0;3;3;2;;;;;;;;;;;138.60245354300423;139.10607201200037;space;0.3904528369894251;139.35232057300163;None;139.35232057300163;None;P3;1;2021_Dec_01_1454;Psychophysics_project;2021.2.3;59.293911501636344;
;coffee_a;go;water.png;0;4;4;4;;;;;;;;;;;140.0372914699983;140.53958265999972;space;0.30912662399350666;140.785601607;None;140.785601607;None;P3;1;2021_Dec_01_1454;Psychophysics_project;2021.2.3;59.293911501636344;
;coffee_a;go;water.png;0;5;5;3;;;;;;;;;;;141.38671935899765;141.8906162140047;space;0.30256374400050845;142.13614701699407;None;142.13614701699407;None;P3;1;2021_Dec_01_1454;Psychophysics_project;2021.2.3;59.293911501636344;
;coffee_a;no-go;coffee1.png;0;6;6;23;;;;;;;;;;;143.27011030599533;143.774272345996;None;;144.02196045299934;None;144.02196045299934;144.537757004;P3;1;2021_Dec_01_1454;Psychophysics_project;2021.2.3;59.293911501636344;
;coffee_a;no-go;coffee1.png;0;7;7;20;;;;;;;;;;;146.3176155830006;146.82566246499482;space;0.5039385749987559;147.0731860819942;146.08871359999466;147.0731860819942;147.58573509700364;P3;1;2021_Dec_01_1454;Psychophysics_project;2021.2.3;59.293911501636344;
;coffee_a;go;water.png;0;8;8;9;;;;;;;;;;;147.89161739799601;148.39362452599744;space;0.3526066670019645;148.65636865100532;None;148.65636865100532;None;P3;1;2021_Dec_01_1454;Psychophysics_project;2021.2.3;59.293911501636344;
;coffee_a;no-go;coffee1.png;0;9;9;19;;;;;;;;;;;149.84037558200362;150.34104240300076;None;;150.5915099559934;None;150.5915099559934;151.09652760899917;P3;1;2021_Dec_01_1454;Psychophysics_project;2021.2.3;59.293911501636344;
;coffee_a;no-go;coffee1.png;0;10;10;27;;;;;;;;;;;152.89177254900278;153.39599812199594;None;;153.64304720300424;152.65987786400365;153.64304720300424;154.15703268699872;P3;1;2021_Dec_01_1454;Psychophysics_project;2021.2.3;59.293911501636344;
;coffee_a;no-go;coffee1.png;0;11;11;22;;;;;;;;;;;155.94340697699226;156.44688868099183;None;;156.69457859099202;155.71656760800397;156.69457859099202;157.2084279809933;P3;1;2021_Dec_01_1454;Psychophysics_project;2021.2.3;59.293911501636344;
;coffee_a;no-go;coffee1.png;0;12;12;17;;;;;;;;;;;158.99472309400153;159.5046351140045;None;;159.74783068400575;158.76268353499472;159.74783068400575;160.25034147300175;P3;1;2021_Dec_01_1454;Psychophysics_project;2021.2.3;59.293911501636344;
;coffee_a;go;water.png;0;13;13;12;;;;;;;;;;;161.5644871819968;162.0667407229921;space;0.38918620100594126;162.3125175939931;161.32962689499254;162.3125175939931;None;P3;1;2021_Dec_01_1454;Psychophysics_project;2021.2.3;59.293911501636344;
;coffee_a;no-go;coffee1.png;0;14;14;18;;;;;;;;;;;163.5470248920028;164.05112227599602;None;;164.29825027199695;None;164.29825027199695;164.81494609700167;P3;1;2021_Dec_01_1454;Psychophysics_project;2021.2.3;59.293911501636344;
;coffee_a;no-go;coffee1.png;0;15;15;29;;;;;;;;;;;166.59828211099375;167.10223419799877;None;;167.34966113699193;166.3697222979972;167.34966113699193;167.8658309129969;P3;1;2021_Dec_01_1454;Psychophysics_project;2021.2.3;59.293911501636344;
;coffee_a;no-go;coffee1.png;0;16;16;21;;;;;;;;;;;169.64970619700034;170.1533519479999;None;;170.40132765199814;169.42018982699665;170.40132765199814;170.9024620919954;P3;1;2021_Dec_01_1454;Psychophysics_project;2021.2.3;59.293911501636344;
;coffee_a;no-go;coffee1.png;0;17;17;16;;;;;;;;;;;172.68780318599602;173.1888608379959;None;;173.45237631299824;172.46790945599787;173.45237631299824;173.9613148780045;P3;1;2021_Dec_01_1454;Psychophysics_project;2021.2.3;59.293911501636344;
;coffee_a;go;water.png;0;18;18;5;;;;;;;;;;;175.2707688209921;175.77291115699336;space;0.37606261200562585;176.01920615100244;175.03590477000398;176.01920615100244;None;P3;1;2021_Dec_01_1454;Psychophysics_project;2021.2.3;59.293911501636344;
;coffee_a;no-go;coffee1.png;0;19;19;15;;;;;;;;;;;177.23677397800202;177.74095865999698;None;;177.98790560499765;None;177.98790560499765;178.4878976149921;P3;1;2021_Dec_01_1454;Psychophysics_project;2021.2.3;59.293911501636344;
;coffee_a;no-go;coffee1.png;0;20;20;26;;;;;;;;;;;180.28810760600027;180.7918856269971;None;;181.03941445499368;180.05840867900406;181.03941445499368;181.53842036800052;P3;1;2021_Dec_01_1454;Psychophysics_project;2021.2.3;59.293911501636344;
;coffee_a;go;water.png;0;21;21;7;;;;;;;;;;;182.85559779200412;183.36007993300154;space;0.4043472949997522;183.6058845219959;182.62403057399206;183.6058845219959;None;P3;1;2021_Dec_01_1454;Psychophysics_project;2021.2.3;59.293911501636344;
;coffee_a;no-go;coffee1.png;0;22;22;24;;;;;;;;;;;184.84038574299484;185.3441686080041;None;;185.59152341600566;None;185.59152341600566;186.10780267500377;P3;1;2021_Dec_01_1454;Psychophysics_project;2021.2.3;59.293911501636344;
;coffee_a;go;water.png;0;23;23;13;;;;;;;;;;;187.391419364998;187.89520737199928;space;0.3834699750004802;188.1412861199933;187.15759608100052;188.1412861199933;None;P3;1;2021_Dec_01_1454;Psychophysics_project;2021.2.3;59.293911501636344;
;coffee_a;go;water.png;0;24;24;1;;;;;;;;;;;188.82567462899897;189.3292866480042;space;0.6213773659983417;189.5915260509937;None;189.5915260509937;190.0971473469981;P3;1;2021_Dec_01_1454;Psychophysics_project;2021.2.3;59.293911501636344;
;coffee_a;no-go;coffee1.png;0;25;25;25;;;;;;;;;;;191.04555864700524;191.54733551800018;None;;191.79438239199226;None;191.79438239199226;192.29993752199516;P3;1;2021_Dec_01_1454;Psychophysics_project;2021.2.3;59.293911501636344;
;coffee_a;go;water.png;0;26;26;11;;;;;;;;;;;193.59460661299818;194.0979318030004;space;0.38613219698891044;194.3443630709953;193.36372171099356;194.3443630709953;None;P3;1;2021_Dec_01_1454;Psychophysics_project;2021.2.3;59.293911501636344;
;coffee_a;go;water.png;0;27;27;10;;;;;;;;;;;195.01185809800518;195.51534146099584;space;0.4088509199937107;195.76176655000017;None;195.76176655000017;None;P3;1;2021_Dec_01_1454;Psychophysics_project;2021.2.3;59.293911501636344;
;coffee_a;go;water.png;0;28;28;14;;;;;;;;;;;196.46210082099424;196.9665068250033;space;0.31002543499926105;197.21248356200522;None;197.21248356200522;None;P3;1;2021_Dec_01_1454;Psychophysics_project;2021.2.3;59.293911501636344;
;coffee_a;go;water.png;0;29;29;6;;;;;;;;;;;197.8134775340004;198.3167685840017;space;0.2948146859998815;198.56379120299243;None;198.56379120299243;None;P3;1;2021_Dec_01_1454;Psychophysics_project;2021.2.3;59.293911501636344;
;coffee_b;no-go;coffee2.png;;;;;0;0;0;25;;;;;;;199.13054943700263;199.63393295000424;None;;199.88052604500263;None;199.88052604500263;200.38510123899323;P3;1;2021_Dec_01_1454;Psychophysics_project;2021.2.3;59.293911501636344;
;coffee_b;go;water.png;;;;;0;1;1;2;;;;;;;201.64781141700223;202.15187138899637;space;0.33808613500150386;202.3980070730031;201.4060573500028;202.3980070730031;None;P3;1;2021_Dec_01_1454;Psychophysics_project;2021.2.3;59.293911501636344;
;coffee_b;go;water.png;;;;;0;2;2;14;;;;;;;203.01586693100398;203.51959486299893;space;0.4666410110075958;203.76555512100458;None;203.76555512100458;None;P3;1;2021_Dec_01_1454;Psychophysics_project;2021.2.3;59.293911501636344;
;coffee_b;no-go;coffee2.png;;;;;0;3;3;20;;;;;;;204.4996193429979;205.00334065800416;None;;205.24953354199533;None;205.24953354199533;205.7542525119934;P3;1;2021_Dec_01_1454;Psychophysics_project;2021.2.3;59.293911501636344;
;coffee_b;go;water.png;;;;;0;4;4;4;;;;;;;207.01739156400436;207.52097367600072;space;0.31136971899832133;207.76742298499448;206.77530268399278;207.76742298499448;None;P3;1;2021_Dec_01_1454;Psychophysics_project;2021.2.3;59.293911501636344;
;coffee_b;no-go;coffee2.png;;;;;0;5;5;24;;;;;;;208.35182511000312;208.85500063399377;None;;209.10144383099396;None;209.10144383099396;209.60624474400538;P3;1;2021_Dec_01_1454;Psychophysics_project;2021.2.3;59.293911501636344;
;coffee_b;go;water.png;;;;;0;6;6;0;;;;;;;210.8693989559979;211.37363025599916;space;0.3532946799969068;211.61933671799488;210.62708356199437;211.61933671799488;None;P3;1;2021_Dec_01_1454;Psychophysics_project;2021.2.3;59.293911501636344;
;coffee_b;no-go;coffee2.png;;;;;0;7;7;22;;;;;;;212.2363720680005;212.74107677000575;None;;212.98664238599304;None;212.98664238599304;213.4871951660025;P3;1;2021_Dec_01_1454;Psychophysics_project;2021.2.3;59.293911501636344;
;coffee_b;no-go;coffee2.png;;;;;0;8;8;28;;;;;;;214.72126283400576;215.2253896379989;None;;215.47096855500422;214.49182671800372;215.47096855500422;215.9757116539986;P3;1;2021_Dec_01_1454;Psychophysics_project;2021.2.3;59.293911501636344;
;coffee_b;go;water.png;;;;;0;9;9;3;;;;;;;217.23912929199287;217.74280569699476;space;0.3776241549931001;217.98887789099535;216.99586784699932;217.98887789099535;None;P3;1;2021_Dec_01_1454;Psychophysics_project;2021.2.3;59.293911501636344;
;coffee_b;go;water.png;;;;;0;10;10;1;;;;;;;218.65797210199526;219.15993656800129;space;0.34443154599284753;219.40598912499263;None;219.40598912499263;None;P3;1;2021_Dec_01_1454;Psychophysics_project;2021.2.3;59.293911501636344;
;coffee_b;no-go;coffee2.png;;;;;0;11;11;19;;;;;;;220.02337494399399;220.52760108400253;space;0.344975924002938;220.77344467799412;None;220.77344467799412;None;P3;1;2021_Dec_01_1454;Psychophysics_project;2021.2.3;59.293911501636344;
;coffee_b;no-go;coffee2.png;;;;;0;12;12;27;;;;;;;221.39127809800266;221.8948479690007;None;;222.1408461779938;None;222.1408461779938;222.64558026799932;P3;1;2021_Dec_01_1454;Psychophysics_project;2021.2.3;59.293911501636344;
;coffee_b;no-go;coffee2.png;;;;;0;13;13;16;;;;;;;223.87565484299557;224.37939569899754;None;;224.62531696799851;223.64599234200432;224.62531696799851;225.12584160399274;P3;1;2021_Dec_01_1454;Psychophysics_project;2021.2.3;59.293911501636344;
;coffee_b;go;water.png;;;;;0;14;14;8;;;;;;;226.3932849099947;226.8971002879989;space;0.4457008949975716;227.1433833859919;226.15091146799386;227.1433833859919;None;P3;1;2021_Dec_01_1454;Psychophysics_project;2021.2.3;59.293911501636344;
;coffee_b;no-go;coffee2.png;;;;;0;15;15;26;;;;;;;227.86077983499854;228.3642095929972;None;;228.61056198799633;None;228.61056198799633;229.1113083149976;P3;1;2021_Dec_01_1454;Psychophysics_project;2021.2.3;59.293911501636344;
;coffee_b;no-go;coffee2.png;;;;;0;16;16;15;;;;;;;230.3451967860019;230.84518483499414;None;;231.09613090599305;230.11586502499995;231.09613090599305;231.59622074199433;P3;1;2021_Dec_01_1454;Psychophysics_project;2021.2.3;59.293911501636344;
;coffee_b;go;water.png;;;;;0;17;17;6;;;;;;;232.8797129309969;233.3839541280031;space;0.4220346840011189;233.62950806200388;232.63766590200248;233.62950806200388;None;P3;1;2021_Dec_01_1454;Psychophysics_project;2021.2.3;59.293911501636344;
;coffee_b;go;water.png;;;;;0;18;18;13;;;;;;;234.33179551899957;234.83445242300513;space;0.41920889999892097;235.08027222400415;None;235.08027222400415;None;P3;1;2021_Dec_01_1454;Psychophysics_project;2021.2.3;59.293911501636344;
;coffee_b;no-go;coffee2.png;;;;;0;19;19;21;;;;;;;235.76422689200263;236.26795036099793;None;;236.51438948500436;None;236.51438948500436;237.01905439900293;P3;1;2021_Dec_01_1454;Psychophysics_project;2021.2.3;59.293911501636344;
;coffee_b;go;water.png;;;;;0;20;20;7;;;;;;;238.28265022499545;238.78593652299605;space;0.38548780500423163;239.03205569800048;238.03934200899675;239.03205569800048;None;P3;1;2021_Dec_01_1454;Psychophysics_project;2021.2.3;59.293911501636344;
;coffee_b;go;water.png;;;;;0;21;21;5;;;;;;;239.7164748609939;240.2199307599949;space;0.4628132649959298;240.46660749000148;None;240.46660749000148;None;P3;1;2021_Dec_01_1454;Psychophysics_project;2021.2.3;59.293911501636344;
;coffee_b;no-go;coffee2.png;;;;;0;22;22;29;;;;;;;241.20051960999263;241.70408859600138;None;;241.9500849210017;None;241.9500849210017;242.45060854000621;P3;1;2021_Dec_01_1454;Psychophysics_project;2021.2.3;59.293911501636344;
;coffee_b;no-go;coffee2.png;;;;;0;23;23;18;;;;;;;243.6848687860038;244.18884994300606;None;;244.4347306760028;243.45537325199984;244.4347306760028;244.93947822100017;P3;1;2021_Dec_01_1454;Psychophysics_project;2021.2.3;59.293911501636344;
;coffee_b;go;water.png;;;;;0;24;24;12;;;;;;;246.20291401199938;246.70631668200076;space;0.4383292130078189;246.95258624899725;245.9599976890022;246.95258624899725;None;P3;1;2021_Dec_01_1454;Psychophysics_project;2021.2.3;59.293911501636344;
;coffee_b;go;water.png;;;;;0;25;25;10;;;;;;;247.6867808179959;248.19057414699637;space;0.31419809799990617;248.43670002599538;None;248.43670002599538;None;P3;1;2021_Dec_01_1454;Psychophysics_project;2021.2.3;59.293911501636344;
;coffee_b;no-go;coffee2.png;;;;;0;26;26;23;;;;;;;249.0208209429984;249.53394071999355;None;;249.77431591200002;None;249.77431591200002;250.28665461599303;P3;1;2021_Dec_01_1454;Psychophysics_project;2021.2.3;59.293911501636344;
;coffee_b;no-go;coffee2.png;;;;;0;27;27;17;;;;;;;251.52206466300413;252.02565274199878;None;;252.27180319899344;251.29239332499856;252.27180319899344;252.77286537300097;P3;1;2021_Dec_01_1454;Psychophysics_project;2021.2.3;59.293911501636344;
;coffee_b;go;water.png;;;;;0;28;28;9;;;;;;;254.03975494099723;254.54338834200462;space;0.3038333560107276;254.78988337499322;253.80052284400153;254.78988337499322;None;P3;1;2021_Dec_01_1454;Psychophysics_project;2021.2.3;59.293911501636344;
;coffee_b;go;water.png;;;;;0;29;29;11;;;;;;;255.37373969600594;255.87809464300517;space;0.3702267699991353;256.1236192960059;None;256.1236192960059;None;P3;1;2021_Dec_01_1454;Psychophysics_project;2021.2.3;59.293911501636344;