;Condit;Task;stim_file;coffee1.thisRepN;coffee1.thisTrialN;coffee1.thisN;coffee1.thisIndex;coffee2.thisRepN;coffee2.thisTrialN;coffee2.thisN;coffee2.thisIndex;key_resp_instructions.keys;key_resp_instructions.rt;key_resp_instructions.started;key_resp_instructions.stopped;image_instructions.started;image_instructions.stopped;polygon.started;polygon.stopped;key_resp.keys;key_resp.started;key_resp.stopped;image.started;image.stopped;key_resp.rt;participant;session;date;expName;psychopyVersion;frameRate;
;;;;;;;;;;;;space;27.543387861995143;10.632558558994788;None;;;;;;;;;;;P5;1;2021_Dec_01_1501;Psychophysics_project;2021.2.3;60.349456547354706;
;coffee_a;no-go;coffee1.png;0;0;0;21;;;;;;;;;10.632558558994788;None;39.06074228500074;39.57566719100578;None;39.80695279799693;None;39.80695279799693;40.31815927599382;;P5;1;2021_Dec_01_1501;Psychophysics_project;2021.2.3;60.349456547354706;
;coffee_a;no-go;coffee1.png;0;1;1;24;;;;;;;;;;;41.506227480000234;42.01061712199589;None;42.25827460599248;None;42.25827460599248;42.76913300099841;;P5;1;2021_Dec_01_1501;Psychophysics_project;2021.2.3;60.349456547354706;
;coffee_a;go;water.png;0;2;2;14;;;;;;;;;;;43.541111283004284;44.04650825000135;space;44.2908103630034;None;44.2908103630034;None;0.43701218299975153;P5;1;2021_Dec_01_1501;Psychophysics_project;2021.2.3;60.349456547354706;
;coffee_a;no-go;coffee1.png;0;3;3;28;;;;;;;;;;;45.574771529994905;46.07875828900433;None;46.32607571900007;None;46.32607571900007;46.827049942992744;;P5;1;2021_Dec_01_1501;Psychophysics_project;2021.2.3;60.349456547354706;
;coffee_a;no-go;coffee1.png;0;4;4;16;;;;;;;;;;;48.62625798600493;49.1302773530042;None;49.37757232200238;48.399285980005516;49.37757232200238;49.876673851991654;;P5;1;2021_Dec_01_1501;Psychophysics_project;2021.2.3;60.349456547354706;
;coffee_a;no-go;coffee1.png;0;5;5;29;;;;;;;;;;;51.511091770997155;52.01508642800036;None;52.262961486005224;None;52.262961486005224;52.77183330099797;;P5;1;2021_Dec_01_1501;Psychophysics_project;2021.2.3;60.349456547354706;
;coffee_a;go;water.png;0;6;6;5;;;;;;;;;;;53.49520824699721;53.99987868199241;space;54.24513548699906;None;54.24513548699906;None;0.3866594920109492;P5;1;2021_Dec_01_1501;Psychophysics_project;2021.2.3;60.349456547354706;
;coffee_a;go;water.png;0;7;7;0;;;;;;;;;;;54.91708516700601;55.41816047699831;space;55.6630824009917;None;55.6630824009917;None;0.39264901100250427;P5;1;2021_Dec_01_1501;Psychophysics_project;2021.2.3;60.349456547354706;
;coffee_a;go;water.png;0;8;8;8;;;;;;;;;;;56.3471246429981;56.8557327860035;space;57.096968433004804;None;57.096968433004804;None;0.3348852990020532;P5;1;2021_Dec_01_1501;Psychophysics_project;2021.2.3;60.349456547354706;
;coffee_a;go;water.png;0;9;9;13;;;;;;;;;;;57.71843162400182;58.22143343799689;space;58.46731956099393;None;58.46731956099393;None;0.3004971179907443;P5;1;2021_Dec_01_1501;Psychophysics_project;2021.2.3;60.349456547354706;
;coffee_a;no-go;coffee1.png;0;10;10;23;;;;;;;;;;;59.59807045999332;60.10250065899163;None;60.34995730800438;None;60.34995730800438;60.85914334800327;;P5;1;2021_Dec_01_1501;Psychophysics_project;2021.2.3;60.349456547354706;
;coffee_a;no-go;coffee1.png;0;11;11;25;;;;;;;;;;;62.64950405800482;63.1535538790049;None;63.401388718993985;62.41389999400417;63.401388718993985;63.91154610599915;;P5;1;2021_Dec_01_1501;Psychophysics_project;2021.2.3;60.349456547354706;
;coffee_a;go;water.png;0;12;12;3;;;;;;;;;;;65.22178085199266;65.72380012899521;space;65.96751054600463;64.98740295300377;65.96751054600463;None;0.37631800200324506;P5;1;2021_Dec_01_1501;Psychophysics_project;2021.2.3;60.349456547354706;
;coffee_a;go;water.png;0;13;13;7;;;;;;;;;;;66.6347362910019;67.1415844889998;space;67.39125949400477;None;67.39125949400477;None;0.40860354200412985;P5;1;2021_Dec_01_1501;Psychophysics_project;2021.2.3;60.349456547354706;
;coffee_a;go;water.png;0;14;14;4;;;;;;;;;;;68.08871421299409;68.59390824500588;space;68.83659440399788;None;68.83659440399788;None;0.33911183799500577;P5;1;2021_Dec_01_1501;Psychophysics_project;2021.2.3;60.349456547354706;
;coffee_a;go;water.png;0;15;15;6;;;;;;;;;;;69.4696623130003;69.97799616899283;space;70.21939855499659;None;70.21939855499659;None;0.3086177170043811;P5;1;2021_Dec_01_1501;Psychophysics_project;2021.2.3;60.349456547354706;
;coffee_a;no-go;coffee1.png;0;16;16;17;;;;;;;;;;;71.39128379999602;71.89117376500508;None;72.1405493469938;None;72.1405493469938;72.6452799809922;;P5;1;2021_Dec_01_1501;Psychophysics_project;2021.2.3;60.349456547354706;
;coffee_a;no-go;coffee1.png;0;17;17;20;;;;;;;;;;;74.43847585699405;74.94239683399792;space;75.19071537400305;74.22026315200492;75.19071537400305;None;0.2730864649929572;P5;1;2021_Dec_01_1501;Psychophysics_project;2021.2.3;60.349456547354706;
;coffee_a;go;water.png;0;18;18;11;;;;;;;;;;;75.77366665800218;76.27866805699887;space;76.52305430099659;None;76.52305430099659;None;0.34076408999681007;P5;1;2021_Dec_01_1501;Psychophysics_project;2021.2.3;60.349456547354706;
;coffee_a;go;water.png;0;19;19;1;;;;;;;;;;;77.15647914100555;77.66191439800605;space;77.90660162900167;None;77.90660162900167;None;0.34926822400302626;P5;1;2021_Dec_01_1501;Psychophysics_project;2021.2.3;60.349456547354706;
;coffee_a;no-go;coffee1.png;0;20;20;22;;;;;;;;;;;79.12415222299751;79.62804686299933;None;79.87573316799535;None;79.87573316799535;80.38522322999779;;P5;1;2021_Dec_01_1501;Psychophysics_project;2021.2.3;60.349456547354706;
;coffee_a;go;water.png;0;21;21;9;;;;;;;;;;;81.67560286600201;82.17977956899267;space;82.42756521400588;81.44546596999862;82.42756521400588;None;0.37222193500201683;P5;1;2021_Dec_01_1501;Psychophysics_project;2021.2.3;60.349456547354706;
;coffee_a;no-go;coffee1.png;0;22;22;18;;;;;;;;;;;83.69289728699368;84.19716026399692;None;84.44463003799319;None;84.44463003799319;84.95565158200043;;P5;1;2021_Dec_01_1501;Psychophysics_project;2021.2.3;60.349456547354706;
;coffee_a;go;water.png;0;23;23;2;;;;;;;;;;;86.24404351199337;86.75055813799554;space;87.00182152999332;86.01350185299816;87.00182152999332;None;0.32597984599124175;P5;1;2021_Dec_01_1501;Psychophysics_project;2021.2.3;60.349456547354706;
;coffee_a;no-go;coffee1.png;0;24;24;19;;;;;;;;;;;88.2494618359924;88.74906047100376;None;88.99630342300225;None;88.99630342300225;89.506153705006;;P5;1;2021_Dec_01_1501;Psychophysics_project;2021.2.3;60.349456547354706;
;coffee_a;go;water.png;0;25;25;12;;;;;;;;;;;90.81290929099487;91.31804517199635;space;91.54882735799765;90.56786681899393;91.54882735799765;None;0.34702599501179066;P5;1;2021_Dec_01_1501;Psychophysics_project;2021.2.3;60.349456547354706;
;coffee_a;no-go;coffee1.png;0;26;26;26;;;;;;;;;;;92.8523513830005;93.35602576199744;None;93.61541935599234;None;93.61541935599234;94.12110565599869;;P5;1;2021_Dec_01_1501;Psychophysics_project;2021.2.3;60.349456547354706;
;coffee_a;no-go;coffee1.png;0;27;27;15;;;;;;;;;;;95.98721697099973;96.48615343800338;None;96.75033096100378;95.76655356600531;96.75033096100378;97.25751093099825;;P5;1;2021_Dec_01_1501;Psychophysics_project;2021.2.3;60.349456547354706;
;coffee_a;go;water.png;0;28;28;10;;;;;;;;;;;98.58344742500049;99.09202356399328;space;99.33342804100539;98.33957159999409;99.33342804100539;99.8391146799986;0.7384672059997683;P5;1;2021_Dec_01_1501;Psychophysics_project;2021.2.3;60.349456547354706;
;coffee_a;no-go;coffee1.png;0;29;29;27;;;;;;;;;;;100.97224723399268;101.47162744900561;None;101.71941166199395;None;101.71941166199395;102.22363633199711;;P5;1;2021_Dec_01_1501;Psychophysics_project;2021.2.3;60.349456547354706;
;coffee_b;no-go;coffee2.png;;;;;0;0;0;20;;;;;;;103.50213567800529;104.00629966899578;None;104.25224035499559;103.2628837999946;104.25224035499559;104.75916454500111;;P5;1;2021_Dec_01_1501;Psychophysics_project;2021.2.3;60.349456547354706;
;coffee_b;no-go;coffee2.png;;;;;0;1;1;16;;;;;;;105.98711045700475;106.49241471900314;None;106.73695769299229;105.75756203300261;106.73695769299229;107.24230577900016;;P5;1;2021_Dec_01_1501;Psychophysics_project;2021.2.3;60.349456547354706;
;coffee_b;no-go;coffee2.png;;;;;0;2;2;24;;;;;;;108.47616981000465;108.98588850699889;None;109.22738306899555;108.24272849799308;109.22738306899555;109.72766888099432;;P5;1;2021_Dec_01_1501;Psychophysics_project;2021.2.3;60.349456547354706;
;coffee_b;go;water.png;;;;;0;3;3;12;;;;;;;111.01097230700543;111.52037597099843;space;111.76119196999935;110.78741221099335;111.76119196999935;None;0.3959900629997719;P5;1;2021_Dec_01_1501;Psychophysics_project;2021.2.3;60.349456547354706;
;coffee_b;go;water.png;;;;;0;4;4;6;;;;;;;112.46145473199431;112.97020428099495;space;113.21236951800529;None;113.21236951800529;None;0.37683083600131795;P5;1;2021_Dec_01_1501;Psychophysics_project;2021.2.3;60.349456547354706;
;coffee_b;no-go;coffee2.png;;;;;0;5;5;28;;;;;;;113.86243633099366;114.37292781499855;None;114.6131886660005;None;114.6131886660005;115.1135569659964;;P5;1;2021_Dec_01_1501;Psychophysics_project;2021.2.3;60.349456547354706;
;coffee_b;go;water.png;;;;;0;6;6;3;;;;;;;116.38048608400277;116.89025193400448;space;117.13130429000012;116.15667861800466;117.13130429000012;None;0.3887836049980251;P5;1;2021_Dec_01_1501;Psychophysics_project;2021.2.3;60.349456547354706;
;coffee_b;no-go;coffee2.png;;;;;0;7;7;22;;;;;;;117.79764308300219;118.30978220900579;space;118.54300469899317;None;118.54300469899317;None;0.3050752920098603;P5;1;2021_Dec_01_1501;Psychophysics_project;2021.2.3;60.349456547354706;
;coffee_b;go;water.png;;;;;0;8;8;14;;;;;;;119.13135170799796;119.64244343999599;space;119.88226016500266;None;119.88226016500266;None;0.33388095699774567;P5;1;2021_Dec_01_1501;Psychophysics_project;2021.2.3;60.349456547354706;
;coffee_b;go;water.png;;;;;0;9;9;11;;;;;;;120.49857249799243;121.00640214400482;space;121.2490865120053;None;121.2490865120053;None;0.40703716600546613;P5;1;2021_Dec_01_1501;Psychophysics_project;2021.2.3;60.349456547354706;
;coffee_b;no-go;coffee2.png;;;;;0;10;10;23;;;;;;;121.93293728899152;122.44089155299298;None;122.68351846700534;None;122.68351846700534;123.18429922299401;;P5;1;2021_Dec_01_1501;Psychophysics_project;2021.2.3;60.349456547354706;
;coffee_b;no-go;coffee2.png;;;;;0;11;11;29;;;;;;;124.42821844499849;124.93918427500466;None;125.18523893499514;124.20053512099548;125.18523893499514;125.68528195000545;;P5;1;2021_Dec_01_1501;Psychophysics_project;2021.2.3;60.349456547354706;
;coffee_b;no-go;coffee2.png;;;;;0;12;12;25;;;;;;;126.93504098799895;127.4430517419969;None;127.68586482699902;126.7049158699956;127.68586482699902;128.18567171999894;;P5;1;2021_Dec_01_1501;Psychophysics_project;2021.2.3;60.349456547354706;
;coffee_b;no-go;coffee2.png;;;;;0;13;13;18;;;;;;;129.43168973599677;129.9355049799924;None;130.18129438499454;129.20223643099598;130.18129438499454;130.68670234699675;;P5;1;2021_Dec_01_1501;Psychophysics_project;2021.2.3;60.349456547354706;
;coffee_b;no-go;coffee2.png;;;;;0;14;14;15;;;;;;;131.91587049599912;132.4200174879952;None;132.66581462399336;131.68675055100175;132.66581462399336;133.17135247999977;;P5;1;2021_Dec_01_1501;Psychophysics_project;2021.2.3;60.349456547354706;
;coffee_b;no-go;coffee2.png;;;;;0;15;15;26;;;;;;;134.400584463001;134.90436051199504;None;135.15040032900288;134.17112873999577;135.15040032900288;135.65574634900258;;P5;1;2021_Dec_01_1501;Psychophysics_project;2021.2.3;60.349456547354706;
;coffee_b;go;water.png;;;;;0;16;16;13;;;;;;;136.91828440300014;137.42237474600552;space;137.66824611999618;136.67841728699568;137.66824611999618;None;0.429386356001487;P5;1;2021_Dec_01_1501;Psychophysics_project;2021.2.3;60.349456547354706;
;coffee_b;go;water.png;;;;;0;17;17;9;;;;;;;138.4025204089994;138.90747129400552;space;139.15244585300388;None;139.15244585300388;None;0.3531533609930193;P5;1;2021_Dec_01_1501;Psychophysics_project;2021.2.3;60.349456547354706;
;coffee_b;no-go;coffee2.png;;;;;0;18;18;21;;;;;;;139.7852188179968;140.2954558719939;None;140.53588406699419;None;140.53588406699419;141.04266812099377;;P5;1;2021_Dec_01_1501;Psychophysics_project;2021.2.3;60.349456547354706;
;coffee_b;no-go;coffee2.png;;;;;0;19;19;17;;;;;;;142.27558183600195;142.78522453199548;None;143.02661013200122;142.04215881800337;143.02661013200122;143.52699388300243;;P5;1;2021_Dec_01_1501;Psychophysics_project;2021.2.3;60.349456547354706;
;coffee_b;go;water.png;;;;;0;20;20;7;;;;;;;144.79387219999626;145.3024058220035;space;145.5443464090058;144.56990941199183;145.5443464090058;None;0.38802661999943666;P5;1;2021_Dec_01_1501;Psychophysics_project;2021.2.3;60.349456547354706;
;coffee_b;go;water.png;;;;;0;21;21;10;;;;;;;146.2385366709932;146.75045098000555;space;146.9944458349928;None;146.9944458349928;None;0.46596031400258653;P5;1;2021_Dec_01_1501;Psychophysics_project;2021.2.3;60.349456547354706;
;coffee_b;no-go;coffee2.png;;;;;0;22;22;27;;;;;;;147.72850595899217;148.23573030799162;None;148.47848639500444;None;148.47848639500444;148.9796684460016;;P5;1;2021_Dec_01_1501;Psychophysics_project;2021.2.3;60.349456547354706;
;coffee_b;go;water.png;;;;;0;23;23;5;;;;;;;150.26304201099265;150.77308158800588;space;151.0138266510039;150.01932465599384;151.0138266510039;151.51455690400326;0.5300864540040493;P5;1;2021_Dec_01_1501;Psychophysics_project;2021.2.3;60.349456547354706;
;coffee_b;go;water.png;;;;;0;24;24;8;;;;;;;151.8341305960057;152.34708079899428;space;152.58034066899563;None;152.58034066899563;None;0.3716200189955998;P5;1;2021_Dec_01_1501;Psychophysics_project;2021.2.3;60.349456547354706;
;coffee_b;go;water.png;;;;;0;25;25;4;;;;;;;153.24391023500357;153.75471949699568;space;153.99939649700536;None;153.99939649700536;None;0.3765790100005688;P5;1;2021_Dec_01_1501;Psychophysics_project;2021.2.3;60.349456547354706;
;coffee_b;go;water.png;;;;;0;26;26;0;;;;;;;154.6774052730034;155.18198980399757;space;155.42670962300326;None;155.42670962300326;None;0.3491367170063313;P5;1;2021_Dec_01_1501;Psychophysics_project;2021.2.3;60.349456547354706;
;coffee_b;no-go;coffee2.png;;;;;0;27;27;19;;;;;;;156.0429720599932;156.54894950200105;None;156.79401901300298;None;156.79401901300298;157.2989213779947;;P5;1;2021_Dec_01_1501;Psychophysics_project;2021.2.3;60.349456547354706;
;coffee_b;go;water.png;;;;;0;28;28;1;;;;;;;158.56183687600424;159.0610801760049;space;159.31188159799785;158.32071658500354;159.31188159799785;None;0.4252941419981653;P5;1;2021_Dec_01_1501;Psychophysics_project;2021.2.3;60.349456547354706;
;coffee_b;go;water.png;;;;;0;29;29;2;;;;;;;160.03245546399557;160.54561402800027;space;160.7838805460051;None;160.7838805460051;None;0.46540480499970727;P5;1;2021_Dec_01_1501;Psychophysics_project;2021.2.3;60.349456547354706;